# Table 3.13  Measured gamma-ray leakage spectrum from a Pb sphere of 40 cm diameter.
# ----------------------------------------------------------
# Lower Energy  Upper Energy   Energy Spectrum     Error
#    [MeV]         [MeV]         [/MeV/S.n.]
# ----------------------------------------------------------
 0.65   6.000E-01     7.000E-01        6.386E-02      6.190E-03
 0.75   7.000E-01     8.000E-01        5.678E-02      2.380E-03
 0.85   8.000E-01     9.000E-01        7.840E-02      6.100E-04
 0.95   9.000E-01     1.000E+00        6.535E-02      2.000E-04
 1.05   1.000E+00     1.100E+00        4.269E-02      2.100E-04
 1.15   1.100E+00     1.200E+00        3.377E-02      3.400E-04
 1.25   1.200E+00     1.300E+00        3.107E-02      4.600E-04
 1.35   1.300E+00     1.400E+00        2.835E-02      3.700E-04
 1.45   1.400E+00     1.500E+00        2.564E-02      2.000E-04
 1.55   1.500E+00     1.600E+00        2.423E-02      4.200E-04
 1.65   1.600E+00     1.700E+00        2.425E-02      5.500E-04
 1.75   1.700E+00     1.800E+00        2.478E-02      4.900E-04
 1.85   1.800E+00     1.900E+00        2.392E-02      3.600E-04
 1.95   1.900E+00     2.000E+00        2.157E-02      2.200E-04
 2.05   2.000E+00     2.100E+00        1.946E-02      2.100E-04
 2.15   2.100E+00     2.200E+00        1.780E-02      3.200E-04
 2.25   2.200E+00     2.300E+00        1.599E-02      4.400E-04
 2.35   2.300E+00     2.400E+00        1.511E-02      5.700E-04
 2.45   2.400E+00     2.500E+00        1.687E-02      5.800E-04
 2.55   2.500E+00     2.600E+00        2.064E-02      4.000E-04
 2.65   2.600E+00     2.700E+00        2.281E-02      1.900E-04
 2.75   2.700E+00     2.800E+00        2.048E-02      3.200E-04
 2.85   2.800E+00     2.900E+00        1.503E-02      5.200E-04
 2.95   2.900E+00     3.000E+00        1.006E-02      6.200E-04
 3.05   3.000E+00     3.100E+00        7.349E-03      5.930E-04
 3.15   3.100E+00     3.200E+00        6.336E-03      4.840E-04
 3.25   3.200E+00     3.300E+00        5.976E-03      3.640E-04
 3.35   3.300E+00     3.400E+00        5.771E-03      3.750E-04
 3.45   3.400E+00     3.500E+00        5.690E-03      7.600E-04
 3.55   3.500E+00     3.600E+00        5.744E-03      1.231E-03
 3.65   3.600E+00     3.700E+00        5.791E-03      1.444E-03
 3.75   3.700E+00     3.800E+00        5.662E-03      1.161E-03
 3.85   3.800E+00     3.900E+00        5.352E-03      5.060E-04
 3.95   3.900E+00     4.000E+00        4.994E-03      8.320E-04
 4.1    4.000E+00     4.200E+00        4.587E-03      1.288E-03
 4.3    4.200E+00     4.400E+00        4.271E-03      9.750E-04
 4.5    4.400E+00     4.600E+00        3.869E-03      7.240E-04
 4.7    4.600E+00     4.800E+00        3.150E-03      1.100E-03
 4.9    4.800E+00     5.000E+00        2.796E-03      5.080E-04
 5.25   5.000E+00     5.500E+00        1.653E-03      5.400E-04
 5.75   5.500E+00     6.000E+00        1.040E-03      3.200E-04
 6.25   6.000E+00     6.500E+00        1.147E-03      2.220E-04
 6.75   6.500E+00     7.000E+00        1.103E-03      1.930E-04
 7.25   7.000E+00     7.500E+00        4.657E-04      1.426E-04
 7.75   7.500E+00     8.000E+00        3.516E-04      1.086E-04
 8.25   8.000E+00     8.500E+00        3.173E-04      9.390E-05
 8.75   8.500E+00     9.000E+00        1.219E-04      5.730E-05
 9.25   9.000E+00     9.500E+00        2.174E-04      3.890E-05
 9.75   9.500E+00     1.000E+01        1.072E-04      2.490E-05
10.25   1.000E+01     1.050E+01        5.485E-05      1.940E-05
10.75   1.050E+01     1.100E+01        2.378E-05      1.000E-05
# ----------------------------------------------------------
