#  Table 3.7  Measured gamma-ray leakage spectrum from a Mn sphere of 60 cm diameter.
#  ----------------------------------------------------------
#  Lower Energy  Upper Energy   Energy Spectrum     Error
#     [MeV]         [MeV]         [/MeV/S.n.]
#  ----------------------------------------------------------
   0.5500    5.000E-01     6.000E-01        2.442E-01      6.300E-03
   0.6500    6.000E-01     7.000E-01        1.431E-01      2.500E-03
   0.7500    7.000E-01     8.000E-01        1.401E-01      1.100E-03
   0.8500    8.000E-01     9.000E-01        1.805E-01      5.000E-04
   0.9500    9.000E-01     1.000E+00        1.460E-01      3.000E-04
   1.0500    1.000E+00     1.100E+00        9.851E-02      5.100E-04
   1.1500    1.100E+00     1.200E+00        8.547E-02      1.000E-03
   1.2500    1.200E+00     1.300E+00        7.995E-02      1.600E-03
   1.3500    1.300E+00     1.400E+00        7.166E-02      1.340E-03
   1.4500    1.400E+00     1.500E+00        6.640E-02      5.600E-04
   1.5500    1.500E+00     1.600E+00        6.275E-02      1.410E-03
   1.6500    1.600E+00     1.700E+00        5.628E-02      1.800E-03
   1.7500    1.700E+00     1.800E+00        5.080E-02      1.520E-03
   1.8500    1.800E+00     1.900E+00        4.776E-02      1.050E-03
   1.9500    1.900E+00     2.000E+00        4.381E-02      6.700E-04
   2.0500    2.000E+00     2.100E+00        3.987E-02      7.700E-04
   2.1500    2.100E+00     2.200E+00        3.866E-02      1.120E-03
   2.2500    2.200E+00     2.300E+00        3.851E-02      1.460E-03
   2.3500    2.300E+00     2.400E+00        3.610E-02      1.810E-03
   2.4500    2.400E+00     2.500E+00        3.196E-02      1.810E-03
   2.5500    2.500E+00     2.600E+00        2.901E-02      1.180E-03
   2.6500    2.600E+00     2.700E+00        2.785E-02      5.700E-04
   2.7500    2.700E+00     2.800E+00        2.689E-02      9.100E-04
   2.8500    2.800E+00     2.900E+00        2.515E-02      1.300E-03
   2.9500    2.900E+00     3.000E+00        2.307E-02      1.670E-03
   3.0500    3.000E+00     3.100E+00        2.134E-02      1.940E-03
   3.1500    3.100E+00     3.200E+00        2.024E-02      1.850E-03
   3.2500    3.200E+00     3.300E+00        1.962E-02      1.230E-03
   3.3500    3.300E+00     3.400E+00        1.908E-02      1.040E-03
   3.4500    3.400E+00     3.500E+00        1.821E-02      2.630E-03
   3.5500    3.500E+00     3.600E+00        1.684E-02      4.110E-03
   3.6500    3.600E+00     3.700E+00        1.522E-02      4.500E-03
   3.7500    3.700E+00     3.800E+00        1.385E-02      3.300E-03
   3.8500    3.800E+00     3.900E+00        1.310E-02      1.250E-03
   3.9500    3.900E+00     4.000E+00        1.303E-02      3.230E-03
   4.2500    4.000E+00     4.500E+00        1.166E-02      2.150E-03
   4.7500    4.500E+00     5.000E+00        6.997E-03      2.122E-03
   5.2500    5.000E+00     5.500E+00        7.462E-03      2.314E-03
   5.7500    5.500E+00     6.000E+00        8.395E-03      1.444E-03
   6.2500    6.000E+00     6.500E+00        3.611E-03      9.850E-04
   6.7500    6.500E+00     7.000E+00        8.556E-03      1.059E-03
   7.2500    7.000E+00     7.500E+00        1.266E-03      8.560E-04
   7.7500    7.500E+00     8.000E+00        3.423E-03      6.490E-04
   8.2500    8.000E+00     8.500E+00        1.867E-03      5.420E-04
   8.7500    8.500E+00     9.000E+00        1.175E-03      3.190E-04
   9.2500    9.000E+00     9.500E+00        1.364E-03      2.020E-04
   9.7500    9.500E+00     1.000E+01        1.034E-03      1.540E-04
  10.2500    1.000E+01     1.050E+01        3.320E-04      8.230E-05
  10.7500    1.050E+01     1.100E+01        1.135E-04      3.250E-05
#  ----------------------------------------------------------
