#  Table 3.4  Measured gamma-ray leakage spectrum from a Si sphere of 60 cm diameter.
#  ----------------------------------------------------------
#  Lower Energy  Upper Energy   Energy Spectrum     Error
#     [MeV]         [MeV]         [/MeV/S.n.]
#  ----------------------------------------------------------
   0.3500    3.000E-01     4.000E-01        3.171E-01      1.100E-03
   0.4500    4.000E-01     5.000E-01        2.046E-01      1.200E-03
   0.5500    5.000E-01     6.000E-01        2.024E-01      1.200E-03
   0.6500    6.000E-01     7.000E-01        2.642E-01      1.200E-03
   0.7500    7.000E-01     8.000E-01        2.235E-01      1.000E-03
   0.8500    8.000E-01     9.000E-01        1.737E-01      1.000E-03
   0.9500    9.000E-01     1.000E+00        1.673E-01      9.000E-04
   1.0500    1.000E+00     1.100E+00        1.877E-01      1.400E-03
   1.1500    1.100E+00     1.200E+00        1.775E-01      1.000E-03
   1.2500    1.200E+00     1.300E+00        1.490E-01      1.200E-03
   1.3500    1.300E+00     1.400E+00        1.452E-01      1.100E-03
   1.4500    1.400E+00     1.500E+00        2.002E-01      1.400E-03
   1.5500    1.500E+00     1.600E+00        2.768E-01      1.700E-03
   1.6500    1.600E+00     1.700E+00        2.157E-01      1.400E-03
   1.7500    1.700E+00     1.800E+00        1.129E-01      1.400E-03
   1.8500    1.800E+00     1.900E+00        7.780E-02      1.480E-03
   1.9500    1.900E+00     2.000E+00        7.483E-02      1.050E-03
   2.0500    2.000E+00     2.100E+00        7.143E-02      1.280E-03
   2.1500    2.100E+00     2.200E+00        6.256E-02      1.780E-03
   2.2500    2.200E+00     2.300E+00        5.549E-02      1.730E-03
   2.3500    2.300E+00     2.400E+00        5.570E-02      1.870E-03
   2.4500    2.400E+00     2.500E+00        6.197E-02      2.840E-03
   2.5500    2.500E+00     2.600E+00        7.099E-02      2.260E-03
   2.6500    2.600E+00     2.700E+00        7.256E-02      1.360E-03
   2.7500    2.700E+00     2.800E+00        6.235E-02      2.710E-03
   2.8500    2.800E+00     2.900E+00        5.096E-02      2.610E-03
   2.9500    2.900E+00     3.000E+00        4.654E-02      2.040E-03
   3.0500    3.000E+00     3.100E+00        4.716E-02      2.380E-03
   3.1500    3.100E+00     3.200E+00        4.806E-02      2.290E-03
   3.2500    3.200E+00     3.300E+00        4.650E-02      1.880E-03
   3.3500    3.300E+00     3.400E+00        4.326E-02      2.070E-03
   3.4500    3.400E+00     3.500E+00        4.034E-02      2.880E-03
   3.5500    3.500E+00     3.600E+00        3.816E-02      3.400E-03
   3.6500    3.600E+00     3.700E+00        3.663E-02      3.530E-03
   3.7500    3.700E+00     3.800E+00        3.548E-02      2.860E-03
   3.8500    3.800E+00     3.900E+00        3.412E-02      2.080E-03
   3.9500    3.900E+00     4.000E+00        3.316E-02      3.030E-03
   4.2500    4.000E+00     4.500E+00        3.524E-02      2.590E-03
   4.7500    4.500E+00     5.000E+00        3.200E-02      4.740E-03
   5.2500    5.000E+00     5.500E+00        2.468E-02      6.310E-03
   5.7500    5.500E+00     6.000E+00        1.774E-02      5.460E-03
   6.2500    6.000E+00     6.500E+00        2.177E-02      4.500E-03
   6.7500    6.500E+00     7.000E+00        2.841E-02      6.830E-03
   7.2500    7.000E+00     7.500E+00        1.684E-02      6.270E-03
   7.7500    7.500E+00     8.000E+00        1.946E-02      5.280E-03
   8.2500    8.000E+00     8.500E+00        1.683E-03      4.963E-03
   8.7500    8.500E+00     9.000E+00        2.284E-02      4.910E-03
   9.2500    9.000E+00     9.500E+00        1.723E-03      5.981E-03
   9.7500    9.500E+00     1.000E+01        2.039E-02      6.670E-03
  10.2500    1.000E+01     1.050E+01        1.288E-03      5.512E-03
  10.7500    1.050E+01     1.100E+01        1.078E-02      4.330E-03
#  ----------------------------------------------------------
