#  Table 3.6  Measured gamma-ray leakage spectrum from a Cr sphere of 40 cm diameter.
#  ----------------------------------------------------------
#  Lower Energy  Upper Energy   Energy Spectrum     Error
#     [MeV]         [MeV]         [/MeV/S.n.]
#  ----------------------------------------------------------
   0.3500    3.000E-01     4.000E-01        3.118E-01      7.000E-04
   0.4500    4.000E-01     5.000E-01        2.426E-01      7.000E-04
   0.5500    5.000E-01     6.000E-01        2.289E-01      7.000E-04
   0.6500    6.000E-01     7.000E-01        2.653E-01      7.000E-04
   0.7500    7.000E-01     8.000E-01        2.439E-01      6.000E-04
   0.8500    8.000E-01     9.000E-01        1.847E-01      6.000E-04
   0.9500    9.000E-01     1.000E+00        1.652E-01      6.000E-04
   1.0500    1.000E+00     1.100E+00        1.993E-01      7.000E-04
   1.1500    1.100E+00     1.200E+00        2.911E-01      6.000E-04
   1.2500    1.200E+00     1.300E+00        3.086E-01      7.000E-04
   1.3500    1.300E+00     1.400E+00        1.781E-01      6.000E-04
   1.4500    1.400E+00     1.500E+00        8.858E-02      7.100E-04
   1.5500    1.500E+00     1.600E+00        6.908E-02      8.300E-04
   1.6500    1.600E+00     1.700E+00        5.855E-02      6.400E-04
   1.7500    1.700E+00     1.800E+00        5.379E-02      6.800E-04
   1.8500    1.800E+00     1.900E+00        5.306E-02      7.500E-04
   1.9500    1.900E+00     2.000E+00        5.115E-02      5.800E-04
   2.0500    2.000E+00     2.100E+00        5.037E-02      6.500E-04
   2.1500    2.100E+00     2.200E+00        4.927E-02      8.700E-04
   2.2500    2.200E+00     2.300E+00        4.579E-02      8.400E-04
   2.3500    2.300E+00     2.400E+00        4.241E-02      9.400E-04
   2.4500    2.400E+00     2.500E+00        4.034E-02      1.380E-03
   2.5500    2.500E+00     2.600E+00        3.836E-02      1.110E-03
   2.6500    2.600E+00     2.700E+00        3.648E-02      6.800E-04
   2.7500    2.700E+00     2.800E+00        3.708E-02      1.330E-03
   2.8500    2.800E+00     2.900E+00        4.043E-02      1.300E-03
   2.9500    2.900E+00     3.000E+00        4.272E-02      9.600E-04
   3.0500    3.000E+00     3.100E+00        4.087E-02      1.090E-03
   3.1500    3.100E+00     3.200E+00        3.636E-02      1.080E-03
   3.2500    3.200E+00     3.300E+00        3.256E-02      8.900E-04
   3.3500    3.300E+00     3.400E+00        3.056E-02      9.400E-04
   3.4500    3.400E+00     3.500E+00        2.952E-02      1.300E-03
   3.5500    3.500E+00     3.600E+00        2.865E-02      1.530E-03
   3.6500    3.600E+00     3.700E+00        2.749E-02      1.580E-03
   3.7500    3.700E+00     3.800E+00        2.577E-02      1.330E-03
   3.8500    3.800E+00     3.900E+00        2.409E-02      1.030E-03
   3.9500    3.900E+00     4.000E+00        2.348E-02      1.350E-03
   4.0500    4.000E+00     4.100E+00        2.414E-02      1.800E-03
   4.1500    4.100E+00     4.200E+00        2.523E-02      2.250E-03
   4.2500    4.200E+00     4.300E+00        2.588E-02      3.010E-03
   4.3500    4.300E+00     4.400E+00        2.542E-02      3.510E-03
   4.4500    4.400E+00     4.500E+00        2.337E-02      2.990E-03
   4.5500    4.500E+00     4.600E+00        1.982E-02      1.940E-03
   4.6500    4.600E+00     4.700E+00        1.566E-02      3.690E-03
   4.7500    4.700E+00     4.800E+00        1.259E-02      6.380E-03
   4.8500    4.800E+00     4.900E+00        1.229E-02      7.210E-03
   4.9500    4.900E+00     5.000E+00        1.537E-02      4.920E-03
   5.2500    5.000E+00     5.500E+00        2.539E-02      3.140E-03
   5.7500    5.500E+00     6.000E+00        1.121E-02      2.580E-03
   6.2500    6.000E+00     6.500E+00        1.618E-02      1.670E-03
   6.7500    6.500E+00     7.000E+00        1.440E-02      2.730E-03
   7.2500    7.000E+00     7.500E+00        8.613E-03      2.529E-03
   7.7500    7.500E+00     8.000E+00        8.949E-03      2.054E-03
   8.2500    8.000E+00     8.500E+00        4.834E-03      1.861E-03
   8.7500    8.500E+00     9.000E+00        5.793E-03      1.442E-03
   9.2500    9.000E+00     9.500E+00        1.244E-03      1.622E-03
   9.7500    9.500E+00     1.000E+01        3.757E-03      1.743E-03
  10.2500    1.000E+01     1.050E+01        1.319E-04      1.445E-03
  10.7500    1.050E+01     1.100E+01        1.554E-03      1.152E-03
#  ----------------------------------------------------------
